Folder: Clyd/data/stocks

File: TGA.csv
0.0,15.0,13.75,13.75,11.5779,700
0.0,12.5,11.25,11.25,9.47284,0
0.0,10.625,9.375,9.375,7.89403,200
0.0,7.5,6.25,6.25,5.26269,500
0.0,7.5,6.25,6.25,5.26269,400
0.0,6.875,6.25,6.25,5.26269,500
0.0,3.75,3.125,3.125,2.63134,2600
0.0,4.6875,4.0625,4.0625,3.42075,0
0.0,5.625,5.0,5.0,4.21015,1000
0.0,6.25,5.625,5.625,4.73642,100
4.375,4.375,4.375,4.375,3.68388,0
0.0,6.25,5.625,5.625,4.73642,3100
0.0,5.0,4.375,4.375,3.68388,0
0.0,4.0625,3.4375,3.4375,2.89448,500
0.0,4.0625,3.4375,3.4375,2.89448,1200
2.5,2.5,2.5,2.5,2.10507,0
0.0,3.125,2.5,2.5,2.10507,2400
0.0,2.8125,2.5,2.5,2.10507,0
2.5,2.5,2.5,2.5,2.10507,0
0.0,3.125,2.1875,2.1875,1.84194,200
0.0,4.0625,3.4375,3.4375,2.89448,100
0.0,3.75,2.8125,2.8125,2.36821,2000
0.0,2.8125,2.1875,2.1875,1.84194,100
2.8125,2.8125,2.8125,2.8125,2.36821,0
0.0,11.25,10.625,10.625,8.94657,3200
0.0,8.125,7.5,7.5,6.31522,200
0.0,8.75,7.5,7.5,6.31522,200
5.0,5.0,5.0,5.0,4.21015,0
0.0,4.0625,3.125,3.125,2.63134,3200
3.125,3.125,3.125,3.125,2.63134,0
0.0,3.75,3.125,3.125,2.63134,2300
0.0,3.75,3.125,3.125,2.63134,400
0.0,3.125,2.5,2.5,2.10507,0
3.4375,3.4375,3.4375,3.4375,2.89448,0
0.0,3.4375,2.5,2.5,2.10507,100
2.1875,2.1875,2.1875,2.1875,1.84194,0
0.0,2.96875,2.1875,2.1875,1.84194,200
0.0,2.5,1.875,1.875,1.57881,200
0.0,2.8125,1.875,1.875,1.57881,600
2.5,2.5,2.5,2.5,2.10507,0
0.0,2.5,1.875,1.875,1.57881,400
0.0,3.125,2.1875,2.1875,1.84194,0
1.875,1.875,1.875,1.875,1.57881,0
0.0,2.8125,2.5,2.5,2.10507,0
0.0,3.125,2.8125,2.8125,2.36821,3600
0.0,2.8125,2.1875,2.1875,1.84194,0
0.0,2.5,1.5625,1.5625,1.31567,0
1.875,1.875,1.875,1.875,1.57881,0
0.0,2.1875,1.875,1.875,1.57881,100
1.875,1.875,1.875,1.875,1.57881,0
0.0,1.875,0.9375,0.9375,0.789403,200
0.625,0.625,0.625,0.625,0.526269,0
0.0,1.25,0.625,0.625,0.526269,0
0.0,0.9375,0.625,0.625,0.526269,400
0.0,1.25,0.625,0.625,0.526269,200
0.625,0.625,0.625,0.625,0.526269,0
0.0,1.25,0.625,0.625,0.526269,200
0.625,0.625,0.625,0.625,0.526269,0
0.0,1.25,0.625,0.625,0.526269,200
0.0,0.9375,0.625,0.625,0.526269,200
0.3125,0.3125,0.3125,0.3125,0.263134,0
0.0,0.9375,0.3125,0.3125,0.263134,100
0.3125,0.3125,0.3125,0.3125,0.263134,0
0.0,1.875,1.625,1.625,1.3683,2200
0.0,2.0,1.9375,1.9375,1.63143,8600
0.0,2.25,2.125,2.25,1.89457,23400
1.0625,1.0625,1.0625,1.0625,0.894657,0
1.375,1.375,1.375,1.375,1.15779,0
0.0,1.6875,1.6875,1.6875,1.42093,500
0.0,2.5,2.375,2.5,2.10507,1100
0.0,2.5,2.375,2.5,2.10507,5000
0.0,2.75,2.6875,2.6875,2.26296,74400
0.0,6.1875,5.875,5.9375,4.99955,71500
0.0,5.1875,5.0,5.1875,4.36803,75700
0.0,5.3125,5.0,5.25,4.42066,28400
0.0,4.375,4.0,4.125,3.47337,25200
0.0,4.125,3.875,4.125,3.47337,12000
0.0,4.5,3.875,4.125,3.47337,84200
4.625,4.796875,4.375,4.625,3.89439,15200
4.125,4.5,4.125,4.25,3.57863,4600
3.875,3.875,3.875,3.875,3.26287,1000
3.625,4.0,3.5,3.5625,2.99973,29600
4.75,4.75,4.5,4.5,3.78913,45600
3.375,3.625,3.3125,3.375,2.84185,53000
2.9375,3.25,2.875,3.0625,2.57872,20800
3.0,3.0,2.625,2.75,2.31558,13200
2.6875,3.0,2.6875,3.0,2.52609,79100
5.1875,5.1875,4.625,4.875,4.1049,326800
5.0625,5.125,4.9375,5.0,4.21015,22500
4.5,4.75,4.375,4.75,3.99964,33200
4.375,4.625,4.25,4.25,3.57863,22300
2.6875,3.0,2.625,3.0,2.52609,65400
4.0,4.0,3.6875,3.8125,3.21024,4600
3.875,4.125,3.875,4.0,3.36812,7800
3.875,3.875,3.625,3.625,3.05236,8000
2.75,3.125,2.75,2.875,2.42084,26400
2.375,2.5625,2.375,2.4375,2.05245,14700
1.875,2.125,1.875,1.875,1.57881,51600
1.125,1.125,0.96875,1.0,0.84203,126600
1.65625,1.75,1.5625,1.71875,1.44724,135600
1.75,1.75,1.6875,1.6875,1.42093,15100
2.0,2.0625,1.875,1.875,1.57881,49900
1.5625,1.625,1.375,1.375,1.15779,52000
1.3125,1.4375,1.25,1.34375,1.13148,32000
1.1875,1.3125,1.03125,1.0625,0.894657,131400
1.0,1.0625,1.0,1.03125,0.868343,27800
1.25,1.25,1.125,1.25,1.05254,75100
1.1875,1.25,1.1875,1.1875,0.999911,13700
0.84375,0.875,0.78125,0.78125,0.657836,50300
0.6875,0.6875,0.625,0.6875,0.578896,30100
0.46875,0.46875,0.40625,0.4375,0.368388,60500
0.296875,0.296875,0.25,0.25,0.210507,107000
0.1875,0.1875,0.1875,0.1875,0.157881,500
0.109375,0.140625,0.109375,0.140625,0.11841,24800
0.203125,0.234375,0.203125,0.234375,0.197351,3500
0.203125,0.203125,0.203125,0.203125,0.171037,23000
0.15625,0.15625,0.15625,0.15625,0.131567,2700
0.359375,0.359375,0.34375,0.34375,0.289448,55100
0.46875,0.46875,0.4375,0.4375,0.368388,41500
0.375,0.375,0.375,0.375,0.315761,0
0.40625,0.40625,0.359375,0.390625,0.328918,33100
0.3125,0.390625,0.3125,0.390625,0.328918,42300
0.40625,0.421875,0.375,0.421875,0.355231,48800
0.59375,0.59375,0.515625,0.59375,0.499955,60200
0.5,0.546875,0.484375,0.484375,0.407858,145100
0.46875,0.484375,0.46875,0.484375,0.407858,44900
0.578125,0.703125,0.578125,0.703125,0.592052,177000
0.65625,0.65625,0.578125,0.59375,0.499955,83900
0.65625,0.65625,0.625,0.640625,0.539425,35700
0.40625,0.40625,0.390625,0.390625,0.328918,3400
0.375,0.375,0.375,0.375,0.315761,10000
0.33,0.38,0.33,0.34,0.28629,12100
0.37,0.37,0.33,0.33,0.27787,7700
0.3,0.3,0.26,0.26,0.218928,11700
0.22,0.25,0.22,0.24,0.202087,134300
0.27,0.28,0.24,0.24,0.202087,77500
0.29,0.3,0.29,0.29,0.244189,31400
0.33,0.33,0.27,0.27,0.227348,6700
0.39,0.39,0.39,0.39,0.328392,15100
0.38,0.4,0.36,0.4,0.336812,55900
0.32,0.33,0.3,0.33,0.27787,67200
0.34,0.34,0.29,0.31,0.261029,93700
0.36,0.36,0.36,0.36,0.303131,2500
0.33,0.33,0.32,0.32,0.26945,12200
0.38,0.42,0.38,0.41,0.345232,37900
0.45,0.46,0.42,0.46,0.387334,42900
0.45,0.47,0.45,0.47,0.395754,37800
0.54,0.54,0.51,0.53,0.446276,100100
0.52,0.52,0.5,0.5,0.421015,52400
0.94,0.97,0.91,0.95,0.799928,223000
1.14,1.16,1.11,1.11,0.934653,99900
1.99,2.2,1.98,2.18,1.83563,1567600
2.85,2.85,2.4,2.52,2.12192,1111300
2.5,2.51,2.36,2.4,2.02087,222200
2.36,2.37,2.3,2.31,1.94509,184700
2.56,2.58,2.43,2.43,2.04613,142800
2.45,2.54,2.45,2.5,2.10507,150500
2.81,2.83,2.75,2.77,2.33242,203500
3.92,3.92,3.79,3.83,3.22497,244200
4.95,4.97,4.87,4.93,4.15121,115900
6.64,6.85,6.63,6.7,5.6416,232700
6.62,6.65,6.45,6.47,5.44793,332000
4.58,4.71,4.49,4.49,3.78071,174000
6.86,7.08,6.72,7.05,5.93631,383700
6.47,6.53,6.16,6.27,5.27953,248900
6.0,6.0,5.5,5.55,4.67327,289300
5.26,5.26,5.05,5.15,4.33645,420700
5.19,5.2,5.11,5.14,4.32803,114300
6.04,6.15,5.87,5.94,5.00166,303200
6.05,6.05,5.93,5.97,5.02692,124700
5.15,5.16,4.85,4.9,4.12595,200900
4.54,4.62,4.52,4.61,3.88176,105000
4.85,4.87,4.63,4.65,3.91544,188600
4.73,4.76,4.65,4.76,4.00806,168700
5.34,5.35,5.23,5.32,4.4796,162600
5.08,5.1,4.66,4.8,4.04174,472200
3.87,4.05,3.83,4.01,3.37654,237500
3.98,4.05,3.97,4.02,3.38496,128000
4.29,4.29,4.15,4.18,3.51968,201800
3.8,3.88,3.63,3.7,3.11551,458400
5.18,5.19,5.01,5.03,4.23541,324700
5.25,5.38,5.25,5.27,4.4375,240800
5.21,5.35,5.16,5.33,4.48802,167400
5.3,5.41,5.25,5.33,4.48802,173600
4.64,4.74,4.59,4.65,3.91544,200000
5.01,5.17,4.95,5.03,4.23541,204700
4.53,4.7,4.53,4.65,3.91544,368300
3.9,3.9,3.78,3.83,3.22497,85300
2.03,2.03,1.74,1.8,1.51565,224600
2.1,2.15,1.99,2.08,1.75142,125700
2.34,2.39,2.23,2.37,1.99561,122800
2.69,2.83,2.69,2.71,2.2819,229200
2.45,2.48,2.39,2.45,2.06297,111600
2.89,2.9,2.8,2.86,2.40821,216500
2.99,3.15,2.99,3.11,2.61871,129300
3.36,3.63,3.36,3.56,2.99763,167700
3.85,3.86,3.68,3.73,3.14077,183400
3.56,3.56,3.45,3.45,2.905,49500
3.72,3.78,3.6,3.7,3.11551,64100
5.49,5.49,5.33,5.37,4.5217,231600
7.53,7.56,7.44,7.44,6.2647,180300
7.53,7.59,7.31,7.32,6.16366,109200
7.46,7.79,7.46,7.75,6.52573,226600
9.7,9.9,9.55,9.58,8.06665,197700
14.93,15.64,14.74,14.82,12.4789,574900
15.74,15.88,15.2,15.61,13.1441,450800
13.72,14.04,13.68,13.76,11.5863,215700
14.94,15.0,14.15,14.27,12.0158,242100
14.7,15.62,14.7,15.6,13.1357,716400
11.91,11.93,11.6,11.79,9.92753,126300
9.68,9.79,9.5,9.62,8.10033,160000
9.17,9.68,9.08,9.29,7.82246,95100
8.28,8.28,8.02,8.18,6.8878,52100
9.48,9.58,9.2,9.49,7.99086,79100
11.65,12.18,11.57,12.15,10.2307,218700
13.86,13.93,13.62,13.75,11.5779,73000
9.58,9.73,9.46,9.63,8.10875,97800
9.21,9.31,8.82,8.89,7.48565,122700
11.9,11.9,11.72,11.78,9.91911,65800
12.07,12.24,11.79,11.8,9.93595,102000
9.62,9.69,9.32,9.37,7.88982,48000
8.79,8.83,8.66,8.66,7.29198,55100
8.08,8.08,7.76,7.82,6.58467,67800
7.43,7.9,7.43,7.85,6.60994,42100
6.17,6.17,5.83,5.95,5.01008,87700
6.74,6.92,6.72,6.79,5.71738,64200
8.81,8.83,8.59,8.76,7.37618,130100
8.78,8.78,8.53,8.67,7.3004,99700
8.18,8.49,8.09,8.49,7.14883,175900
7.55,7.86,7.54,7.81,6.57625,124300
7.97,7.97,7.75,7.81,6.57625,140800
7.06,7.24,7.06,7.18,6.13893,100700
6.73,6.86,6.73,6.74,5.84355,75400
6.26,6.41,6.21,6.36,5.51409,164600
4.7,4.7,4.38,4.47,3.90618,246300
2.92,3.02,2.82,2.86,2.54162,381400
2.95,3.17,2.95,3.14,2.79045,531900
3.2,3.36,3.18,3.35,3.02787,742100
4.47,4.5,4.08,4.08,3.68768,587800
4.06,4.18,4.05,4.1,3.75083,90900
2.99,3.02,2.91,2.97,2.71707,77400
2.59,2.66,2.51,2.65,2.46972,98900
2.32,2.55,2.23,2.3,2.14353,646800
1.77,1.82,1.75,1.8,1.70258,70100
1.38,1.41,1.33,1.38,1.30531,52100
1.65,1.7,1.65,1.69,1.59854,78400
1.78,1.8,1.7,1.7,1.608,100800
1.75,1.81,1.73,1.8,1.70258,72300
1.9,1.92,1.82,1.83,1.73096,61500
2.07,2.13,2.02,2.13,2.01472,79800
1.78,1.82,1.73,1.75,1.65529,325600
1.73,1.75,1.71,1.72,1.62691,44600
1.58,1.61,1.55,1.59,1.50395,230600
1.49,1.53,1.47,1.52,1.43774,54000
1.4,1.4,1.33,1.33,1.25802,104000
1.36,1.4,1.36,1.38,1.30531,31800
1.25,1.26,1.23,1.24,1.17289,25800
1.65,1.7,1.56,1.68,1.58908,45700
1.32,1.33,1.26,1.28,1.21073,122200
1.4,1.4,1.36,1.4,1.32423,93400
1.46,1.46,1.38,1.39,1.31477,19900
2.01,2.01,1.78,1.91,1.80663,377400
2.65,2.84,2.65,2.72,2.57279,793100
3.11,3.12,2.83,2.93,2.77143,731000
3.5,3.56,3.45,3.47,3.31574,452700
2.22,2.26,2.12,2.25,2.14998,139400
2.09,2.09,1.98,2.04,1.94931,74400
2.03,2.06,1.96,1.98,1.89198,70000
1.93,1.95,1.87,1.88,1.83126,149700
1.49,1.52,1.44,1.5,1.46111,105100
1.44,1.45,1.43,1.43,1.39293,100100
1.35,1.37,1.33,1.35,1.35,261900
1.25,1.27,1.24,1.25,1.25,48300
1.16,1.2,1.15,1.19,1.19,155700
1.26,1.26,1.2,1.22,1.22,188400
0.58,0.58,0.46,0.48,0.48,443700
0.4,0.41,0.3,0.34,0.34,361000